Folder: Penetration

File: penetration_test_GCTFast_20210401.csv
Reading,Load [N],Travel [mm],Time,Displacement [mm]
1,-0.5,-69,0,69
24,0.5,-69,1.195,69
47,1,-69.02,2.346,69.02
70,1.5,-69.02,3.495,69.02
93,1.5,-69.02,4.645,69.02
116,2,-69.02,5.796,69.02
139,2,-69.06,6.946,69.06
162,2.5,-69.06,8.095,69.06
185,2.5,-69.06,9.245,69.06
208,2.5,-69.08,10.395,69.08
231,2.5,-69.08,11.545,69.08
254,2.5,-69.08,12.695,69.08
277,3,-69.08,13.845,69.08
300,3,-69.08,14.995,69.08
323,3,-69.1,16.145,69.1
346,3,-69.1,17.295,69.1
369,3,-69.1,18.445,69.1
392,3,-69.12,19.596,69.12
415,3,-69.12,20.745,69.12
438,3,-69.12,21.896,69.12
461,3,-69.12,23.045,69.12
484,3,-69.12,24.195,69.12
507,3,-69.16,25.346,69.16
530,3.5,-69.16,26.496,69.16
553,3,-69.16,27.647,69.16
576,3.5,-69.18,28.795,69.18
599,3.5,-69.18,29.945,69.18
622,3.5,-69.18,31.095,69.18
645,3.5,-69.18,32.245,69.18
668,3.5,-69.2,33.395,69.2
691,3.5,-69.2,34.545,69.2
714,4,-69.2,35.695,69.2
737,3.5,-69.2,36.845,69.2
760,3.5,-69.2,37.995,69.2
783,4,-69.24,39.146,69.24
806,3.5,-69.24,40.296,69.24
829,4,-69.24,41.445,69.24
852,4,-69.26,42.595,69.26
875,4,-69.26,43.746,69.26
898,4,-69.26,44.946,69.26
921,4,-69.26,46.145,69.26
944,4,-69.26,47.295,69.26
967,4,-69.28,48.445,69.28
990,4,-69.28,49.595,69.28
1013,4,-69.28,50.745,69.28
1036,4,-69.3,51.895,69.3
1059,4,-69.3,53.045,69.3
1082,4,-69.3,54.195,69.3
1105,4,-69.3,55.345,69.3
1128,4.5,-69.34,56.495,69.34
1151,4,-69.34,57.645,69.34
1174,4.5,-69.34,58.796,69.34
1197,4.5,-69.36,59.945,69.36
1220,4,-69.36,61.095,69.36
1243,4.5,-69.36,62.246,69.36
1266,4.5,-69.36,63.396,69.36
1289,4.5,-69.36,64.546,69.36
1312,4.5,-69.38,65.695,69.38
1335,4.5,-69.38,66.845,69.38
1358,4.5,-69.38,67.995,69.38
1381,4.5,-69.4,69.146,69.4
1404,4.5,-69.4,70.295,69.4
1427,4.5,-69.4,71.445,69.4
1450,4.5,-69.4,72.595,69.4
1473,4.5,-69.4,73.745,69.4
1496,5,-69.44,74.895,69.44
1519,4.5,-69.44,76.045,69.44
1542,5,-69.44,77.196,69.44
1565,5,-69.46,78.346,69.46
1588,5,-69.46,79.495,69.46
1611,5,-69.46,80.645,69.46
1634,5,-69.46,81.795,69.46
1657,5,-69.46,82.946,69.46
1680,5,-69.48,84.096,69.48
1703,5,-69.48,85.245,69.48
1726,5,-69.48,86.395,69.48
1749,5,-69.5,87.545,69.5
1772,5,-69.5,88.745,69.5
1795,5,-69.5,89.896,69.5
1818,5,-69.5,91.046,69.5
1841,5.5,-69.54,92.195,69.54
1864,5,-69.54,93.345,69.54
1887,5.5,-69.54,94.495,69.54
1910,5.5,-69.54,95.645,69.54
1933,5.5,-69.54,96.796,69.54
1956,5.5,-69.56,97.946,69.56
1979,5,-69.56,99.095,69.56
2002,5.5,-69.56,100.245,69.56
2025,5.5,-69.58,101.395,69.58
2048,5.5,-69.58,102.545,69.58
2071,5.5,-69.58,103.696,69.58
2094,5.5,-69.58,104.845,69.58
2117,5.5,-69.58,105.995,69.58
2140,5.5,-69.62,107.145,69.62
2163,5.5,-69.62,108.295,69.62
2186,5.5,-69.62,109.445,69.62
2209,6,-69.64,110.595,69.64
2232,5.5,-69.64,111.745,69.64
2255,5.5,-69.64,112.896,69.64
2278,6,-69.64,114.046,69.64
2301,6,-69.64,115.195,69.64
2324,6,-69.66,116.345,69.66
2347,6,-69.66,117.496,69.66
2370,6,-69.66,118.695,69.66
2393,6,-69.68,119.845,69.68
2416,6,-69.68,120.996,69.68
2439,6,-69.68,122.145,69.68
2462,6,-69.68,123.295,69.68
2485,6,-69.68,124.445,69.68
2508,6,-69.72,125.596,69.72
2531,6,-69.72,126.745,69.72
2554,6.5,-69.72,127.895,69.72
2577,6,-69.74,129.045,69.74
2600,6,-69.74,130.195,69.74
2623,6,-69.74,131.346,69.74
2646,6.5,-69.74,132.496,69.74
2669,6.5,-69.74,133.645,69.74
2692,6,-69.76,134.795,69.76
2715,6.5,-69.76,135.945,69.76
2738,6.5,-69.76,137.096,69.76
2761,6.5,-69.78,138.245,69.78
2784,6.5,-69.78,139.396,69.78
2807,7,-69.78,140.546,69.78
2830,6.5,-69.78,141.695,69.78
2853,7,-69.82,142.846,69.82
2876,6.5,-69.82,143.995,69.82
2899,6.5,-69.82,145.146,69.82
2922,7,-69.84,146.295,69.84
2945,6.5,-69.84,147.445,69.84
2968,7,-69.84,148.595,69.84
2991,7,-69.84,149.796,69.84
3014,7,-69.84,150.945,69.84
3037,7,-69.86,152.096,69.86
3060,7,-69.86,153.302,69.86
3083,7,-69.86,154.445,69.86
3106,7,-69.86,155.695,69.86
3129,7,-69.9,156.895,69.9
3152,7,-69.9,158.045,69.9
3175,7,-69.9,159.245,69.9
3198,7.5,-69.92,160.396,69.92
3221,7,-69.92,161.645,69.92
3244,7,-69.92,162.845,69.92
3267,7.5,-69.92,163.995,69.92
3290,7.5,-69.92,165.195,69.92
3313,7.5,-69.94,166.346,69.94
3336,7.5,-69.94,167.545,69.94
3359,7.5,-69.94,168.695,69.94
3382,7.5,-69.96,169.896,69.96
3405,7.5,-69.96,171.096,69.96
3428,8,-69.96,172.448,69.96
3451,7.5,-69.96,173.645,69.96
3474,7.5,-70,174.797,70
3497,7.5,-70,176.046,70
3520,7.5,-70,177.295,70
3543,7.5,-70.02,178.495,70.02
3566,8,-70.02,179.646,70.02
3589,8,-70.02,180.846,70.02
3612,8,-70.02,181.995,70.02
3635,8,-70.02,183.195,70.02
3658,8,-70.04,184.395,70.04
3681,8,-70.04,185.746,70.04
3704,8,-70.06,186.946,70.06
3727,8,-70.06,188.195,70.06
3750,8.5,-70.06,189.345,70.06
3773,8.5,-70.06,190.496,70.06
3796,8,-70.06,191.65,70.06
3819,8.5,-70.1,192.895,70.1
3842,8,-70.1,194.096,70.1
3865,8.5,-70.1,195.445,70.1
3888,8.5,-70.12,196.645,70.12
3911,8.5,-70.12,197.845,70.12
3934,8.5,-70.12,199.095,70.12
3957,8.5,-70.12,200.296,70.12
3980,9,-70.14,201.596,70.14
4003,9,-70.14,202.796,70.14
4026,8.5,-70.14,204.096,70.14
4049,8.5,-70.14,205.345,70.14
4072,8.5,-70.18,206.545,70.18
4095,8.5,-70.18,207.796,70.18
4118,9,-70.18,209.145,70.18
4141,9,-70.2,210.495,70.2
4164,9,-70.2,212.095,70.2
4187,9,-70.2,213.595,70.2
4210,9,-70.2,214.996,70.2
4233,9.5,-70.22,216.346,70.22
4256,9,-70.22,217.995,70.22
4279,9,-70.24,219.597,70.24
4302,9.5,-70.24,221.195,70.24
4325,9.5,-70.24,222.746,70.24
4348,9.5,-70.28,224.245,70.28
4371,9.5,-70.28,225.946,70.28
4394,10,-70.3,227.595,70.3
4417,9.5,-70.3,229.146,70.3
4440,10,-70.3,230.745,70.3
4463,10,-70.3,232.396,70.3
4486,10,-70.32,233.996,70.32
4509,10,-70.32,235.746,70.32
4532,10,-70.34,237.445,70.34
4555,10,-70.34,239.145,70.34
4578,10,-70.34,240.845,70.34
4601,10.5,-70.38,242.595,70.38
4624,10.5,-70.38,244.295,70.38
4647,10.5,-70.4,246.045,70.4
4670,10.5,-70.4,247.745,70.4
4693,10.5,-70.4,249.495,70.4
4716,11,-70.42,251.195,70.42
4739,11,-70.42,252.946,70.42
4762,11,-70.44,254.646,70.44
4785,11,-70.44,256.395,70.44
4808,11,-70.44,258.095,70.44
4831,11,-70.48,259.845,70.48
4854,11,-70.48,261.545,70.48
4877,11,-70.48,263.295,70.48
4900,11,-70.5,264.996,70.5
4923,11,-70.5,266.747,70.5
4946,11.5,-70.52,268.445,70.52
4969,11.5,-70.52,270.195,70.52
4992,11.5,-70.52,271.895,70.52
5015,11.5,-70.56,273.645,70.56
5038,12,-70.56,275.346,70.56
5061,12,-70.58,277.096,70.58
5084,12,-70.58,278.796,70.58
5107,12,-70.58,280.545,70.58
5130,12,-70.6,282.245,70.6
5153,12,-70.6,283.995,70.6
5176,12.5,-70.62,285.695,70.62
5199,12.5,-70.62,287.445,70.62
5222,12.5,-70.62,289.145,70.62
5245,13,-70.66,290.895,70.66
5268,13,-70.66,292.596,70.66
5291,13,-70.68,294.345,70.68
5314,13,-70.68,296.046,70.68
5337,13,-70.68,297.795,70.68
5360,13,-70.68,299.496,70.68
5383,13,-70.7,301.245,70.7
5406,13,-70.7,302.945,70.7
5429,13,-70.72,304.695,70.72
5452,13.5,-70.72,306.396,70.72
5475,13.5,-70.72,308.145,70.72
5498,13.5,-70.76,309.846,70.76
5521,13.5,-70.76,311.596,70.76
5544,14,-70.78,313.295,70.78
5567,14,-70.78,315.046,70.78
5590,14,-70.78,316.745,70.78
5613,14,-70.8,318.495,70.8
5636,14.5,-70.8,320.195,70.8
5659,14,-70.8,321.945,70.8
5682,14.5,-70.84,323.646,70.84
5705,14.5,-70.84,325.395,70.84
5728,14.5,-70.86,327.095,70.86
5751,14.5,-70.86,328.845,70.86
5774,14.5,-70.86,330.546,70.86
5797,15,-70.88,332.295,70.88
5820,15,-70.88,333.995,70.88
5843,14.5,-70.9,335.745,70.9
5866,15,-70.9,337.445,70.9
5889,15,-70.9,339.195,70.9
5912,15,-70.94,340.896,70.94
5935,15,-70.94,342.646,70.94
5958,15.5,-70.96,344.345,70.96
5981,15.5,-70.96,346.095,70.96
6004,16,-70.96,347.795,70.96
6027,16,-70.98,349.545,70.98
6050,16,-70.98,351.245,70.98
6073,16,-71,352.995,71
6096,16.5,-71,354.695,71
6119,16,-71,356.445,71
6142,16.5,-71.04,358.145,71.04
6165,16.5,-71.04,359.895,71.04
6188,16.5,-71.06,361.596,71.06
6211,17,-71.06,363.345,71.06
6234,17,-71.06,365.095,71.06
6257,17,-71.08,366.846,71.08
6280,17,-71.08,368.546,71.08
6303,17.5,-71.1,370.295,71.1
6326,17.5,-71.1,371.995,71.1
6349,17.5,-71.1,373.745,71.1
6372,17,-71.14,375.445,71.14
6395,17.5,-71.14,377.195,71.14
6418,17.5,-71.14,378.895,71.14
6441,18,-71.14,380.645,71.14
6464,18,-71.16,382.346,71.16
6487,18.5,-71.16,384.146,71.16
6510,18,-71.18,385.846,71.18
6533,18.5,-71.18,387.595,71.18
6556,18,-71.18,389.296,71.18
6579,18.5,-71.22,391.045,71.22
6602,18.5,-71.22,392.746,71.22
6625,18.5,-71.24,394.495,71.24
6648,19,-71.24,396.196,71.24
6671,19,-71.24,397.945,71.24
6694,19,-71.26,399.645,71.26
6717,19,-71.26,401.395,71.26
6740,19.5,-71.28,403.095,71.28
6748,19.5,,,